{
  "resourceType": "Bundle",
  "type": "transaction",
  "entry": [
    {
      "fullUrl": "urn:uuid:ec090e9c-4d15-3f7e-b528-8556f69425f2",
      "resource": {
        "resourceType": "Patient",
        "id": "ec090e9c-4d15-3f7e-b528-8556f69425f2",
        "identifier": [
          {
            "value": "PATID5421",
            "type": {
              "coding": [
                {
                  "code": "MR"
                }
              ]
            }
          }
        ],
        "name": [
          {
            "family": "Wilson",
            "given": [
              "Patrice",
              "Natasha"
            ],
            "use": "official"
          }
        ],
        "birthDate": "1982-03-04",
        "gender": "female",
        "address": [
          {
            "line": [
              "144 East 12th Street"
            ],
            "city": "Los Angeles",
            "state": "CA",
            "postalCode": "90012"
          }
        ],
        "telecom": [
          {
            "use": "home"
          }
        ]
      },
      "request": {
        "method": "POST",
        "url": "Patient"
      }
    },
    {
      "fullUrl": "urn:uuid:4cfe8d6d-3fc8-3e41-b921-f204be18db31",
      "resource": {
        "resourceType": "Encounter",
        "id": "4cfe8d6d-3fc8-3e41-b921-f204be18db31",
        "location": [
          {
            "status": "active"
          }
        ],
        "subject": {
          "reference": "Patient/ec090e9c-4d15-3f7e-b528-8556f69425f2"
        }
      },
      "request": {
        "method": "POST",
        "url": "Encounter"
      }
    },
    {
      "fullUrl": "urn:uuid:63ae62e3-66d0-3f8c-9ca5-77f159d94121",
      "resource": {
        "resourceType": "RelatedPerson",
        "id": "63ae62e3-66d0-3f8c-9ca5-77f159d94121",
        "relationship": [
          {
            "coding": [
              {
                "code": "SPS",
                "display": "spouse",
                "system": "http://terminology.hl7.org/CodeSystem/v3-RoleCode"
              }
            ]
          }
        ],
        "address": [
          {
            "line": [
              "144 East 12th Street"
            ],
            "city": "Los Angeles",
            "state": "CA",
            "postalCode": "90012"
          }
        ],
        "name": [
          {
            "family": "Wilson",
            "given": [
              "Phillip",
              "Arthur"
            ],
            "use": "official"
          }
        ],
        "patient": {
          "reference": "Patient/ec090e9c-4d15-3f7e-b528-8556f69425f2"
        }
      },
      "request": {
        "method": "POST",
        "url": "RelatedPerson"
      }
    },
    {
      "fullUrl": "urn:uuid:272b4845-a4ce-36dc-bbd7-0813674e4b13",
      "resource": {
        "resourceType": "ServiceRequest",
        "id": "272b4845-a4ce-36dc-bbd7-0813674e4b13",
        "intent": "order",
        "identifier": [
          {
            "value": "ORD448811",
            "type": {
              "coding": [
                {
                  "code": "PLAC",
                  "system": "http://terminology.hl7.org/CodeSystem/v2-0203"
                }
              ]
            }
          },
          {
            "type": {
              "coding": [
                {
                  "code": "PLAC",
                  "system": "http://terminology.hl7.org/CodeSystem/v2-0203"
                }
              ]
            }
          },
          {
            "value": "ORD448811"
          }
        ],
        "authoredOn": "2012-06-28T07:01:00.000Z",
        "subject": {
          "reference": "Patient/ec090e9c-4d15-3f7e-b528-8556f69425f2"
        },
        "code": {
          "coding": [
            {
              "code": "1000",
              "display": "Hepatitis A  B  C Panel",
              "system": "99USL"
            }
          ]
        },
        "reasonReference": [
          {
            "reference": "Condition/a9f04199-d99f-3528-869a-9ab5febefff3"
          }
        ]
      },
      "request": {
        "method": "POST",
        "url": "ServiceRequest"
      }
    },
    {
      "fullUrl": "urn:uuid:3022ed44-62bc-38cf-83eb-29e486aee59c",
      "resource": {
        "resourceType": "Provenance",
        "id": "3022ed44-62bc-38cf-83eb-29e486aee59c",
        "agent": [
          {
            "type": {
              "coding": [
                {
                  "code": "author",
                  "system": "http://terminology.hl7.org/CodeSystem/provenance-participant-type"
                }
              ]
            }
          }
        ],
        "recorded": "2012-06-28T07:01:00.000Z",
        "activity": {
          "coding": [
            {
              "code": "CREATE",
              "system": "http://terminology.hl7.org/CodeSystem/v3-DataOperation"
            }
          ]
        },
        "occurredDateTime": "2012-06-28T07:01:00.000Z",
        "target": [
          {
            "reference": "ServiceRequest/272b4845-a4ce-36dc-bbd7-0813674e4b13"
          }
        ]
      },
      "request": {
        "method": "POST",
        "url": "Provenance"
      }
    },
    {
      "fullUrl": "urn:uuid:a9f04199-d99f-3528-869a-9ab5febefff3",
      "resource": {
        "resourceType": "Condition",
        "id": "a9f04199-d99f-3528-869a-9ab5febefff3",
        "code": {
          "coding": [
            {
              "code": "F11.129",
              "display": "Opioid abuse with intoxication,unspecified",
              "system": "I10C"
            }
          ]
        },
        "subject": {
          "reference": "Patient/ec090e9c-4d15-3f7e-b528-8556f69425f2"
        }
      },
      "request": {
        "method": "POST",
        "url": "Condition"
      }
    }
  ]
}